Folder: reachms/FWTPET of AA6061 with Ti-6Al-4V/XRD/1120

File: 1120.txt
20,2233.33
20.25,2440
20.5,2113.33
20.75,2100
21,2333.33
21.25,2120
21.5,3760
21.75,2100
22,2386.67
22.25,1866.67
22.5,1706.67
22.75,1613.33
23,1646.67
23.25,1613.33
23.5,1633.33
23.75,1686.67
24,1980
24.25,1560
24.5,1513.33
24.75,1340
25,1306.67
25.25,1320
25.5,1080
25.75,1146.67
26,1086.67
26.25,1180
26.5,980
26.75,1780
27,973.333
27.25,906.667
27.5,1080
27.75,1173.33
28,1160
28.25,873.333
28.5,853.333
28.75,913.333
29,800
29.25,826.667
29.5,866.667
29.75,666.667
30,820
30.25,640
30.5,720
30.75,706.667
31,646.667
31.25,693.333
31.5,746.667
31.75,646.667
32,640
32.25,560
32.5,633.333
32.75,660
33,580
33.25,573.333
33.5,553.333
33.75,546.667
34,653.333
34.25,566.667
34.5,566.667
34.75,506.667
35,593.333
35.25,720
35.5,853.333
35.75,780
36,460
36.25,620
36.5,480
36.75,480
37,480
37.25,520
37.5,480
37.75,553.333
38,593.333
38.25,806.667
38.5,4086.67
38.75,2620
39,1013.33
39.25,653.333
39.5,706.667
39.75,666.667
40,800
40.25,1380
40.5,2566.67
40.75,1440
41,720
41.25,480
41.5,506.667
41.75,406.667
42,493.333
42.25,460
42.5,353.333
42.75,413.333
43,360
43.25,406.667
43.5,460
43.75,353.333
44,400
44.25,360
44.5,513.333
44.75,2433.33
45,920
45.25,360
45.5,253.333
45.75,313.333
46,220
46.25,353.333
46.5,333.333
46.75,273.333
47,320
47.25,346.667
47.5,333.333
47.75,373.333
48,246.667
48.25,266.667
48.5,220
48.75,266.667
49,266.667
49.25,193.333
49.5,206.667
49.75,206.667
50,226.667
50.25,206.667
50.5,286.667
50.75,226.667
51,266.667
51.25,240
51.5,200
51.75,193.333
52,273.333
52.25,260
52.5,273.333
52.75,300
53,320
53.25,493.333
53.5,480
53.75,360
54,206.667
54.25,293.333
54.5,246.667
54.75,153.333
55,226.667
55.25,200
55.5,206.667
55.75,160
56,220
56.25,200
56.5,160
56.75,220
57,193.333
57.25,146.667
57.5,186.667
57.75,233.333
58,200
58.25,173.333
58.5,266.667
58.75,153.333
59,193.333
59.25,260
59.5,180
59.75,160
60,260
60.25,273.333
60.5,173.333
60.75,173.333
61,173.333
61.25,160
61.5,126.667
61.75,193.333
62,213.333
62.25,166.667
62.5,166.667
62.75,200
63,273.333
63.25,433.333
63.5,453.333
63.75,473.333
64,253.333
64.25,153.333
64.5,186.667
64.75,220
65,513.333
65.25,820
65.5,273.333
65.75,226.667
66,120
66.25,220
66.5,140
66.75,200
67,186.667
67.25,80
67.5,146.667
67.75,140
68,186.667
68.25,180
68.5,186.667
68.75,100
69,240
69.25,180
69.5,253.333
69.75,213.333
70,226.667
70.25,200
70.5,260
70.75,460
71,573.333
71.25,526.667
71.5,326.667
71.75,226.667
72,226.667
72.25,180
72.5,186.667
72.75,133.333
73,153.333
73.25,173.333
73.5,153.333
73.75,160
74,186.667
74.25,186.667
74.5,153.333
74.75,240
75,240
75.25,193.333
75.5,233.333
75.75,220
76,293.333
76.25,293.333
76.5,406.667
76.75,626.667
77,533.333
77.25,340
77.5,380
77.75,346.667
78,666.667
78.25,1160
78.5,886.667
78.75,226.667
79,193.333
79.25,246.667
79.5,153.333
79.75,120
80,146.667
80.25,113.333
80.5,200
80.75,160
81,160
81.25,206.667
81.5,160
81.75,120
82,206.667
82.25,280
82.5,460
82.75,286.667
83,213.333
83.25,153.333
83.5,153.333
83.75,140
84,126.667
84.25,200
84.5,180
84.75,146.667
85,153.333
85.25,133.333
85.5,126.667
85.75,126.667
86,93.3333
86.25,126.667
86.5,146.667
86.75,153.333
87,106.667
87.25,160
87.5,126.667
87.75,173.333
88,113.333
88.25,140
88.5,100
88.75,146.667
89,100
89.25,146.667
89.5,120
89.75,53.3333
90,106.667