Folder: reachms/FWTPET of AA6061 with Ti-6Al-4V/XRD/560

File: sample 1.txt
20,4140
20.25,4166.67
20.5,3906.67
20.75,3986.67
21,4106.67
21.25,5540
21.5,6740
21.75,3766.67
22,3726.67
22.25,3646.67
22.5,3373.33
22.75,3346.67
23,3000
23.25,3020
23.5,3193.33
23.75,4446.67
24,2813.33
24.25,2780
24.5,2540
24.75,2660
25,2306.67
25.25,2353.33
25.5,2413.33
25.75,2206.67
26,2180
26.25,2233.33
26.5,2966.67
26.75,2326.67
27,1853.33
27.25,1673.33
27.5,1846.67
27.75,2186.67
28,1913.33
28.25,1626.67
28.5,1680
28.75,1626.67
29,1766.67
29.25,1473.33
29.5,1453.33
29.75,1566.67
30,1460
30.25,1306.67
30.5,1340
30.75,1213.33
31,1166.67
31.25,1333.33
31.5,1246.67
31.75,1073.33
32,1180
32.25,920
32.5,1133.33
32.75,1146.67
33,1046.67
33.25,1113.33
33.5,980
33.75,1146.67
34,1086.67
34.25,1053.33
34.5,1266.67
34.75,1193.33
35,1173.33
35.25,1220
35.5,1226.67
35.75,1000
36,1166.67
36.25,973.333
36.5,1266.67
36.75,926.667
37,893.333
37.25,993.333
37.5,1000
37.75,1120
38,1006.67
38.25,2426.67
38.5,1986.67
38.75,1100
39,986.667
39.25,1113.33
39.5,1106.67
39.75,1253.33
40,1626.67
40.25,2340
40.5,1800
40.75,1093.33
41,986.667
41.25,866.667
41.5,1020
41.75,766.667
42,820
42.25,953.333
42.5,846.667
42.75,886.667
43,873.333
43.25,893.333
43.5,940
43.75,880
44,606.667
44.25,680
44.5,1533.33
44.75,773.333
45,733.333
45.25,773.333
45.5,680
45.75,706.667
46,640
46.25,726.667
46.5,760
46.75,593.333
47,553.333
47.25,660
47.5,600
47.75,446.667
48,666.667
48.25,653.333
48.5,673.333
48.75,620
49,546.667
49.25,700
49.5,493.333
49.75,633.333
50,553.333
50.25,626.667
50.5,640
50.75,593.333
51,593.333
51.25,520
51.5,600
51.75,486.667
52,526.667
52.25,533.333
52.5,566.667
52.75,726.667
53,580
53.25,726.667
53.5,593.333
53.75,586.667
54,546.667
54.25,606.667
54.5,526.667
54.75,706.667
55,620
55.25,546.667
55.5,573.333
55.75,533.333
56,486.667
56.25,566.667
56.5,453.333
56.75,473.333
57,460
57.25,633.333
57.5,533.333
57.75,473.333
58,506.667
58.25,493.333
58.5,406.667
58.75,473.333
59,486.667
59.25,546.667
59.5,420
59.75,546.667
60,606.667
60.25,413.333
60.5,566.667
60.75,480
61,580
61.25,526.667
61.5,673.333
61.75,520
62,453.333
62.25,426.667
62.5,600
62.75,626.667
63,400
63.25,520
63.5,620
63.75,613.333
64,453.333
64.25,433.333
64.5,533.333
64.75,646.667
65,840
65.25,520
65.5,520
65.75,560
66,453.333
66.25,506.667
66.5,506.667
66.75,473.333
67,460
67.25,440
67.5,480
67.75,453.333
68,440
68.25,520
68.5,353.333
68.75,380
69,400
69.25,493.333
69.5,433.333
69.75,553.333
70,573.333
70.25,400
70.5,553.333
70.75,493.333
71,653.333
71.25,420
71.5,386.667
71.75,386.667
72,526.667
72.25,493.333
72.5,506.667
72.75,400
73,480
73.25,426.667
73.5,360
73.75,460
74,486.667
74.25,480
74.5,420
74.75,480
75,433.333
75.25,500
75.5,446.667
75.75,520
76,526.667
76.25,540
76.5,673.333
76.75,620
77,506.667
77.25,513.333
77.5,506.667
77.75,606.667
78,760
78.25,586.667
78.5,546.667
78.75,386.667
79,413.333
79.25,373.333
79.5,386.667
79.75,466.667
80,446.667
80.25,400
80.5,360
80.75,366.667
81,226.667
81.25,306.667
81.5,460
81.75,386.667
82,433.333
82.25,360
82.5,373.333
82.75,406.667
83,340
83.25,386.667
83.5,346.667
83.75,346.667
84,320
84.25,366.667
84.5,266.667
84.75,313.333
85,326.667
85.25,260
85.5,366.667
85.75,260
86,306.667
86.25,360
86.5,280
86.75,233.333
87,346.667
87.25,293.333
87.5,280
87.75,300
88,320
88.25,346.667
88.5,340
88.75,240
89,240
89.25,346.667
89.5,306.667
89.75,320
90,326.667