Folder: reachms/FWTPET of AA6061 with Ti-6Al-4V/XRD/710

File: 710.txt
20,3153.33
20.25,3173.33
20.5,3213.33
20.75,3213.33
21,3133.33
21.25,3440
21.5,6886.67
21.75,3026.67
22,3233.33
22.25,2773.33
22.5,2540
22.75,2933.33
23,2453.33
23.25,2413.33
23.5,2413.33
23.75,3466.67
24,2506.67
24.25,2266.67
24.5,2180
24.75,1973.33
25,1900
25.25,2393.33
25.5,2046.67
25.75,1860
26,1793.33
26.25,1686.67
26.5,2140
26.75,2206.67
27,1666.67
27.25,1413.33
27.5,1466.67
27.75,1653.33
28,1633.33
28.25,1393.33
28.5,1466.67
28.75,1366.67
29,1373.33
29.25,1100
29.5,1386.67
29.75,1173.33
30,1186.67
30.25,1026.67
30.5,1046.67
30.75,1133.33
31,973.333
31.25,1060
31.5,1053.33
31.75,926.667
32,926.667
32.25,813.333
32.5,840
32.75,973.333
33,926.667
33.25,706.667
33.5,806.667
33.75,766.667
34,773.333
34.25,833.333
34.5,733.333
34.75,993.333
35,860
35.25,933.333
35.5,980
35.75,1506.67
36,1020
36.25,713.333
36.5,780
36.75,680
37,686.667
37.25,826.667
37.5,773.333
37.75,760
38,860
38.25,1100
38.5,1293.33
38.75,880
39,880
39.25,766.667
39.5,946.667
39.75,793.333
40,1133.33
40.25,1666.67
40.5,1400
40.75,846.667
41,673.333
41.25,580
41.5,606.667
41.75,693.333
42,553.333
42.25,626.667
42.5,573.333
42.75,560
43,546.667
43.25,600
43.5,526.667
43.75,573.333
44,513.333
44.25,520
44.5,633.333
44.75,686.667
45,526.667
45.25,493.333
45.5,520
45.75,586.667
46,540
46.25,526.667
46.5,373.333
46.75,566.667
47,546.667
47.25,420
47.5,440
47.75,433.333
48,366.667
48.25,420
48.5,453.333
48.75,506.667
49,386.667
49.25,400
49.5,333.333
49.75,400
50,440
50.25,460
50.5,266.667
50.75,366.667
51,273.333
51.25,320
51.5,420
51.75,446.667
52,460
52.25,366.667
52.5,453.333
52.75,473.333
53,546.667
53.25,573.333
53.5,393.333
53.75,533.333
54,446.667
54.25,453.333
54.5,373.333
54.75,400
55,360
55.25,420
55.5,333.333
55.75,426.667
56,380
56.25,426.667
56.5,260
56.75,373.333
57,286.667
57.25,406.667
57.5,380
57.75,373.333
58,380
58.25,320
58.5,293.333
58.75,366.667
59,333.333
59.25,286.667
59.5,353.333
59.75,300
60,326.667
60.25,373.333
60.5,313.333
60.75,386.667
61,346.667
61.25,233.333
61.5,346.667
61.75,393.333
62,420
62.25,420
62.5,420
62.75,393.333
63,333.333
63.25,426.667
63.5,433.333
63.75,373.333
64,360
64.25,340
64.5,320
64.75,306.667
65,353.333
65.25,373.333
65.5,340
65.75,240
66,260
66.25,333.333
66.5,253.333
66.75,306.667
67,240
67.25,266.667
67.5,300
67.75,380
68,366.667
68.25,273.333
68.5,346.667
68.75,326.667
69,373.333
69.25,333.333
69.5,226.667
69.75,373.333
70,320
70.25,300
70.5,373.333
70.75,533.333
71,513.333
71.25,400
71.5,300
71.75,293.333
72,293.333
72.25,293.333
72.5,313.333
72.75,306.667
73,333.333
73.25,360
73.5,300
73.75,260
74,333.333
74.25,313.333
74.5,380
74.75,260
75,313.333
75.25,293.333
75.5,320
75.75,286.667
76,366.667
76.25,353.333
76.5,533.333
76.75,533.333
77,473.333
77.25,393.333
77.5,393.333
77.75,326.667
78,480
78.25,453.333
78.5,386.667
78.75,346.667
79,313.333
79.25,286.667
79.5,273.333
79.75,300
80,220
80.25,253.333
80.5,293.333
80.75,313.333
81,240
81.25,246.667
81.5,280
81.75,253.333
82,246.667
82.25,273.333
82.5,293.333
82.75,266.667
83,166.667
83.25,326.667
83.5,266.667
83.75,246.667
84,266.667
84.25,220
84.5,240
84.75,333.333
85,266.667
85.25,220
85.5,246.667
85.75,200
86,253.333
86.25,266.667
86.5,280
86.75,273.333
87,233.333
87.25,240
87.5,240
87.75,186.667
88,266.667
88.25,293.333
88.5,186.667
88.75,233.333
89,266.667
89.25,266.667
89.5,146.667
89.75,280
90,246.667