Folder: reachms/FWTPET of AA6061 with Ti-6Al-4V/XRD/900

File: sample 2.txt
20,2246.67
20.25,2520
20.5,2426.67
20.75,2346.67
21,2693.33
21.25,2700
21.5,4066.67
21.75,2846.67
22,2626.67
22.25,2406.67
22.5,2026.67
22.75,2033.33
23,2080
23.25,1886.67
23.5,1960
23.75,1953.33
24,2906.67
24.25,1726.67
24.5,1693.33
24.75,1566.67
25,1706.67
25.25,1566.67
25.5,1460
25.75,1473.33
26,1373.33
26.25,1546.67
26.5,1320
26.75,2486.67
27,3166.67
27.25,1326.67
27.5,1360
27.75,1286.67
28,1340
28.25,1313.33
28.5,986.667
28.75,1173.33
29,1020
29.25,1133.33
29.5,1133.33
29.75,1000
30,1033.33
30.25,1100
30.5,926.667
30.75,1100
31,786.667
31.25,813.333
31.5,833.333
31.75,746.667
32,826.667
32.25,886.667
32.5,806.667
32.75,753.333
33,720
33.25,920
33.5,746.667
33.75,780
34,780
34.25,700
34.5,786.667
34.75,780
35,786.667
35.25,880
35.5,980
35.75,800
36,740
36.25,1046.67
36.5,773.333
36.75,713.333
37,806.667
37.25,620
37.5,680
37.75,653.333
38,720
38.25,1013.33
38.5,5726.67
38.75,3080
39,960
39.25,813.333
39.5,860
39.75,706.667
40,886.667
40.25,1193.33
40.5,2133.33
40.75,1440
41,826.667
41.25,606.667
41.5,486.667
41.75,620
42,633.333
42.25,566.667
42.5,593.333
42.75,546.667
43,573.333
43.25,440
43.5,533.333
43.75,620
44,440
44.25,453.333
44.5,600
44.75,3526.67
45,1180
45.25,480
45.5,380
45.75,506.667
46,366.667
46.25,353.333
46.5,293.333
46.75,453.333
47,373.333
47.25,446.667
47.5,386.667
47.75,373.333
48,433.333
48.25,426.667
48.5,333.333
48.75,300
49,306.667
49.25,373.333
49.5,246.667
49.75,293.333
50,393.333
50.25,326.667
50.5,380
50.75,286.667
51,386.667
51.25,226.667
51.5,360
51.75,386.667
52,286.667
52.25,226.667
52.5,273.333
52.75,320
53,380
53.25,473.333
53.5,386.667
53.75,346.667
54,340
54.25,320
54.5,286.667
54.75,273.333
55,253.333
55.25,293.333
55.5,220
55.75,240
56,246.667
56.25,300
56.5,280
56.75,240
57,220
57.25,193.333
57.5,253.333
57.75,313.333
58,246.667
58.25,240
58.5,306.667
58.75,206.667
59,220
59.25,273.333
59.5,253.333
59.75,273.333
60,240
60.25,266.667
60.5,273.333
60.75,193.333
61,233.333
61.25,206.667
61.5,206.667
61.75,306.667
62,240
62.25,233.333
62.5,186.667
62.75,173.333
63,260
63.25,333.333
63.5,293.333
63.75,286.667
64,260
64.25,200
64.5,193.333
64.75,273.333
65,786.667
65.25,1100
65.5,360
65.75,266.667
66,206.667
66.25,226.667
66.5,166.667
66.75,126.667
67,186.667
67.25,246.667
67.5,186.667
67.75,246.667
68,260
68.25,260
68.5,233.333
68.75,180
69,233.333
69.25,200
69.5,213.333
69.75,226.667
70,173.333
70.25,140
70.5,293.333
70.75,326.667
71,373.333
71.25,393.333
71.5,300
71.75,200
72,273.333
72.25,226.667
72.5,173.333
72.75,206.667
73,240
73.25,186.667
73.5,260
73.75,280
74,240
74.25,166.667
74.5,226.667
74.75,226.667
75,146.667
75.25,200
75.5,246.667
75.75,233.333
76,160
76.25,220
76.5,253.333
76.75,280
77,320
77.25,166.667
77.5,246.667
77.75,386.667
78,640
78.25,2473.33
78.5,1053.33
78.75,266.667
79,253.333
79.25,186.667
79.5,160
79.75,160
80,240
80.25,193.333
80.5,180
80.75,240
81,186.667
81.25,133.333
81.5,206.667
81.75,133.333
82,213.333
82.25,446.667
82.5,606.667
82.75,513.333
83,213.333
83.25,240
83.5,133.333
83.75,173.333
84,120
84.25,173.333
84.5,173.333
84.75,166.667
85,160
85.25,140
85.5,120
85.75,173.333
86,160
86.25,80
86.5,153.333
86.75,106.667
87,126.667
87.25,200
87.5,200
87.75,166.667
88,166.667
88.25,113.333
88.5,133.333
88.75,100
89,126.667
89.25,100
89.5,126.667
89.75,133.333
90,153.333