Folder: reachms/FWTPET of AA6061 with Ti-6Al-4V/XRD/Base Metal

File: Ti-6Al-4V - 1.txt
20,2420
20.25,2373.33
20.5,2180
20.75,2140
21,2186.67
21.25,2446.67
21.5,4320
21.75,2280
22,2360
22.25,2120
22.5,1946.67
22.75,1900
23,1680
23.25,1826.67
23.5,1660
23.75,1966.67
24,2140
24.25,1813.33
24.5,1633.33
24.75,1500
25,1493.33
25.25,1426.67
25.5,1426.67
25.75,1460
26,1273.33
26.25,1106.67
26.5,1460
26.75,2073.33
27,1273.33
27.25,1233.33
27.5,1086.67
27.75,1286.67
28,1340
28.25,1213.33
28.5,1106.67
28.75,1166.67
29,1073.33
29.25,966.667
29.5,940
29.75,1020
30,900
30.25,920
30.5,846.667
30.75,840
31,933.333
31.25,826.667
31.5,1040
31.75,773.333
32,766.667
32.25,766.667
32.5,740
32.75,806.667
33,706.667
33.25,733.333
33.5,760
33.75,740
34,700
34.25,673.333
34.5,640
34.75,806.667
35,893.333
35.25,1126.67
35.5,1046.67
35.75,813.333
36,760
36.25,760
36.5,800
36.75,860
37,706.667
37.25,753.333
37.5,693.333
37.75,920
38,766.667
38.25,1086.67
38.5,2353.33
38.75,1373.33
39,753.333
39.25,860
39.5,1040
39.75,966.667
40,1200
40.25,2320
40.5,3500
40.75,1233.33
41,880
41.25,640
41.5,653.333
41.75,760
42,580
42.25,600
42.5,506.667
42.75,640
43,566.667
43.25,466.667
43.5,640
43.75,653.333
44,500
44.25,480
44.5,586.667
44.75,500
45,426.667
45.25,426.667
45.5,426.667
45.75,486.667
46,420
46.25,460
46.5,380
46.75,446.667
47,513.333
47.25,393.333
47.5,540
47.75,406.667
48,433.333
48.25,373.333
48.5,460
48.75,413.333
49,366.667
49.25,420
49.5,420
49.75,440
50,440
50.25,506.667
50.5,366.667
50.75,446.667
51,440
51.25,480
51.5,433.333
51.75,406.667
52,326.667
52.25,366.667
52.5,346.667
52.75,366.667
53,573.333
53.25,1080
53.5,873.333
53.75,366.667
54,360
54.25,426.667
54.5,366.667
54.75,346.667
55,473.333
55.25,400
55.5,426.667
55.75,306.667
56,393.333
56.25,440
56.5,360
56.75,346.667
57,346.667
57.25,260
57.5,360
57.75,393.333
58,353.333
58.25,373.333
58.5,320
58.75,306.667
59,353.333
59.25,246.667
59.5,320
59.75,420
60,300
60.25,386.667
60.5,273.333
60.75,340
61,293.333
61.25,380
61.5,360
61.75,493.333
62,393.333
62.25,320
62.5,433.333
62.75,253.333
63,393.333
63.25,520
63.5,460
63.75,506.667
64,320
64.25,313.333
64.5,333.333
64.75,353.333
65,326.667
65.25,320
65.5,320
65.75,326.667
66,313.333
66.25,320
66.5,380
66.75,300
67,286.667
67.25,366.667
67.5,380
67.75,233.333
68,366.667
68.25,340
68.5,326.667
68.75,306.667
69,353.333
69.25,360
69.5,333.333
69.75,266.667
70,280
70.25,360
70.5,393.333
70.75,600
71,1353.33
71.25,1060
71.5,553.333
71.75,480
72,340
72.25,313.333
72.5,266.667
72.75,293.333
73,346.667
73.25,380
73.5,293.333
73.75,226.667
74,293.333
74.25,320
74.5,326.667
74.75,340
75,340
75.25,220
75.5,273.333
75.75,406.667
76,266.667
76.25,466.667
76.5,546.667
76.75,666.667
77,653.333
77.25,393.333
77.5,326.667
77.75,406.667
78,433.333
78.25,513.333
78.5,340
78.75,346.667
79,400
79.25,240
79.5,213.333
79.75,206.667
80,313.333
80.25,300
80.5,326.667
80.75,233.333
81,186.667
81.25,286.667
81.5,273.333
81.75,260
82,266.667
82.25,326.667
82.5,333.333
82.75,360
83,326.667
83.25,253.333
83.5,266.667
83.75,253.333
84,320
84.25,226.667
84.5,233.333
84.75,180
85,273.333
85.25,233.333
85.5,200
85.75,220
86,220
86.25,286.667
86.5,213.333
86.75,233.333
87,240
87.25,173.333
87.5,260
87.75,233.333
88,273.333
88.25,206.667
88.5,226.667
88.75,246.667
89,180
89.25,206.667
89.5,166.667
89.75,226.667
90,233.333